trials.thisRepN,trials.thisTrialN,trials.thisN,trials.thisIndex,Loop.thisRepN,Loop.thisTrialN,Loop.thisN,Loop.thisIndex,text_13.started,text_13.stopped,key_resp_11.keys,key_resp_11.rt,key_resp_11.started,key_resp_11.stopped,HelloWorldImage.started,HelloWorldImage.stopped,key_resp.keys,key_resp.rt,key_resp.started,key_resp.stopped,text_2.started,text_2.stopped,text_12.started,text_12.stopped,helloWorldInput.started,helloWorldInput.stopped,key_resp_4.keys,key_resp_4.rt,key_resp_4.started,key_resp_4.stopped,text_3.started,text_3.stopped,text_11.started,text_11.stopped,key_resp_5.keys,key_resp_5.rt,key_resp_5.started,key_resp_5.stopped,helloWorld_1.started,helloWorld_1.stopped,helloWorld_2.started,helloWorld_2.stopped,helloWorld_3.started,helloWorld_3.stopped,helloWorld_4.started,helloWorld_4.stopped,Fragezeichen.started,Fragezeichen.stopped,text_4.started,text_4.stopped,image_6.started,image_6.stopped,text_5.started,text_5.stopped,key_resp_6.keys,key_resp_6.rt,key_resp_6.started,key_resp_6.stopped,text_10.started,text_10.stopped,key_resp_10.keys,key_resp_10.rt,key_resp_10.started,key_resp_10.stopped,text_14.started,text_14.stopped,key_resp_12.keys,key_resp_12.rt,key_resp_12.started,key_resp_12.stopped,TestSnippet.started,TestSnippet.stopped,key_resp_13.keys,key_resp_13.rt,key_resp_13.started,key_resp_13.stopped,TrainingInput_2.started,TrainingInput_2.stopped,key_resp_15.keys,key_resp_15.rt,key_resp_15.started,key_resp_15.stopped,number1.started,number1.stopped,number2.started,number2.stopped,number3.started,number3.stopped,number4.started,number4.stopped,number5.started,number5.stopped,arrow_2.started,arrow_2.stopped,image_7.started,image_7.stopped,key_resp_16.keys,key_resp_16.rt,key_resp_16.started,key_resp_16.stopped,text.started,text.stopped,key_resp_14.keys,key_resp_14.rt,key_resp_14.started,key_resp_14.stopped,text_6.started,text_6.stopped,key_resp_7.keys,key_resp_7.rt,key_resp_7.started,key_resp_7.stopped,text_7.started,text_7.stopped,sampleSyntax.started,sampleSyntax.stopped,Pfeiltaste.keys,Pfeiltaste.rt,Pfeiltaste.started,Pfeiltaste.stopped,weiter.keys,weiter.rt,weiter.started,weiter.stopped,overview.started,overview.stopped,overviewImage.started,overviewImage.stopped,key_resp_8.keys,key_resp_8.rt,key_resp_8.started,key_resp_8.stopped,key_resp_9.keys,key_resp_9.rt,key_resp_9.started,key_resp_9.stopped,text_9.started,text_9.stopped,warningStartStudy.started,warningStartStudy.stopped,Image.started,Image.stopped,path,image.started,image.stopped,image_1.started,image_1.stopped,image_2.started,image_2.stopped,image_3.started,image_3.stopped,image_4.started,image_4.stopped,image_5.started,image_5.stopped,arrow.started,arrow.stopped,key_resp_3.keys,key_resp_3.rt,key_resp_3.started,key_resp_3.stopped,continuQuestion.started,continuQuestion.stopped,stop.keys,stop.rt,stop.started,stop.stopped,participant,session,date,expName,psychopyVersion,frameRate,
,,,,,,,,9.437920800002757,None,space,1.0631425000028685,9.437920800002757,None,,,,,,,,,,,,,,,,,,,,,,,,,,,,,,,,,,,,,,,,,,,,,,,,,,,,,,,,,,,,,,,,,,,,,,,,,,,,,,,,,,,,,,,,,,,,,,,,,,,,,,,,,,,,,,,,,,,,,,,,,,,,,,,,,,,,,,,,,,,,,,,,,,,,,,,,,,001,001,2021_Jun_01_1353,test,2021.1.4,59.93004964365439,
,,,,,,,,,,,,,,10.52789219999977,None,space,1.0930232999962755,10.52789219999977,None,,,,,,,,,,,,,,,,,,,,,,,,,,,,,,,,,,,,,,,,,,,,,,,,,,,,,,,,,,,,,,,,,,,,,,,,,,,,,,,,,,,,,,,,,,,,,,,,,,,,,,,,,,,,,,,,,,,,,,,,,,,,,,,,,,,,,,,,,,,,,,,,,,,,001,001,2021_Jun_01_1353,test,2021.1.4,59.93004964365439,
,,,,,,,,,,,,,,,,,,,,10.52789219999977,None,10.52789219999977,None,11.644960600009654,None,space,1.2219823000050383,11.644960600009654,None,,,,,,,,,,,,,,,,,,,,,,,,,,,,,,,,,,,,,,,,,,,,,,,,,,,,,,,,,,,,,,,,,,,,,,,,,,,,,,,,,,,,,,,,,,,,,,,,,,,,,,,,,,,,,,,,,,,,,,,,,,,,,,,,,,,,,,,,,,001,001,2021_Jun_01_1353,test,2021.1.4,59.93004964365439,
,,,,,,,,,,,,,,,,,,,,,,,,,,,,,,11.644960600009654,None,11.644960600009654,None,['space'],[1.749335600004997],12.895442499997444,None,,,,,,,,,,,,,,,,,,,,,,,,,,,,,,,,,,,,,,,,,,,,,,,,,,,,,,,,,,,,,,,,,,,,,,,,,,,,,,,,,,,,,,,,,,,,,,,,,,,,,,,,,,,,,,,,,,,,,,,,,,,,,,,,,,001,001,2021_Jun_01_1353,test,2021.1.4,59.93004964365439,
,,,,,,,,,,,,,,,,,,,,,,,,,,,,,,,,,,,,,,12.895442499997444,None,12.895442499997444,None,12.895442499997444,None,12.895442499997444,None,12.895442499997444,None,12.895442499997444,None,12.895442499997444,None,14.66276160000416,None,space,0.8961324999982025,14.66276160000416,None,,,,,,,,,,,,,,,,,,,,,,,,,,,,,,,,,,,,,,,,,,,,,,,,,,,,,,,,,,,,,,,,,,,,,,,,,,,,,,,,,,,,,,,,,,,,,,,,,,,,,,,,,,,,,,001,001,2021_Jun_01_1353,test,2021.1.4,59.93004964365439,
,,,,,,,,,,,,,,,,,,,,,,,,,,,,,,,,,,,,,,,,,,,,,,,,,,,,,,,,,,15.579704700008733,None,space,0.39917449999484234,15.579704700008733,None,,,,,,,,,,,,,,,,,,,,,,,,,,,,,,,,,,,,,,,,,,,,,,,,,,,,,,,,,,,,,,,,,,,,,,,,,,,,,,,,,,,,,,,,,,,,,,,,,,,,,,,,001,001,2021_Jun_01_1353,test,2021.1.4,59.93004964365439,
,,,,,,,,,,,,,,,,,,,,,,,,,,,,,,,,,,,,,,,,,,,,,,,,,,,,,,,,,,,,,,,,15.996856199999456,None,space,0.7861648999969475,15.996856199999456,None,,,,,,,,,,,,,,,,,,,,,,,,,,,,,,,,,,,,,,,,,,,,,,,,,,,,,,,,,,,,,,,,,,,,,,,,,,,,,,,,,,,,,,,,,,,,,,,,,,001,001,2021_Jun_01_1353,test,2021.1.4,59.93004964365439,
,,,,,,,,,,,,,,,,,,,,,,,,,,,,,,,,,,,,,,,,,,,,,,,,,,,,,,,,,,,,,,,,,,,,,,15.996856199999456,None,space,0.3973427000019001,16.813487400009762,None,,,,,,,,,,,,,,,,,,,,,,,,,,,,,,,,,,,,,,,,,,,,,,,,,,,,,,,,,,,,,,,,,,,,,,,,,,,,,,,,,,,,,,,,,,,,001,001,2021_Jun_01_1353,test,2021.1.4,59.93004964365439,
,,,,,,,,,,,,,,,,,,,,,,,,,,,,,,,,,,,,,,,,,,,,,,,,,,,,,,,,,,,,,,,,,,,,,,,,,,,,16.813487400009762,None,['space'],[1.4484316000016406],17.230288400009158,None,,,,,,,,,,,,,,,,,,,,,,,,,,,,,,,,,,,,,,,,,,,,,,,,,,,,,,,,,,,,,,,,,,,,,,,,,,,,,,,,,,,,,,001,001,2021_Jun_01_1353,test,2021.1.4,59.93004964365439,
,,,,,,,,,,,,,,,,,,,,,,,,,,,,,,,,,,,,,,,,,,,,,,,,,,,,,,,,,,,,,,,,,,,,,,,,,,,,,,,,,,17.230288400009158,None,17.230288400009158,None,17.230288400009158,None,17.230288400009158,None,17.230288400009158,None,17.230288400009158,None,18.6975012000039,None,space,1.0714021000021603,18.6975012000039,None,,,,,,,,,,,,,,,,,,,,,,,,,,,,,,,,,,,,,,,,,,,,,,,,,,,,,,,,,,,,,,,,,,,,001,001,2021_Jun_01_1353,test,2021.1.4,59.93004964365439,
,,,,,,,,,,,,,,,,,,,,,,,,,,,,,,,,,,,,,,,,,,,,,,,,,,,,,,,,,,,,,,,,,,,,,,,,,,,,,,,,,,,,,,,,,,,,,,,,,,,,19.797939700001734,None,space,0.7810035000002244,19.797939700001734,None,,,,,,,,,,,,,,,,,,,,,,,,,,,,,,,,,,,,,,,,,,,,,,,,,,,,,,,,,,,,,,001,001,2021_Jun_01_1353,test,2021.1.4,59.93004964365439,
,,,,,,,,,,,,,,,,,,,,,,,,,,,,,,,,,,,,,,,,,,,,,,,,,,,,,,,,,,,,,,,,,,,,,,,,,,,,,,,,,,,,,,,,,,,,,,,,,,,,,,,,,,20.598197200000868,None,space,0.5186028000025544,20.598197200000868,None,,,,,,,,,,,,,,,,,,,,,,,,,,,,,,,,,,,,,,,,,,,,,,,,,,,,,,,,001,001,2021_Jun_01_1353,test,2021.1.4,59.93004964365439,
,,,,,,,,,,,,,,,,,,,,,,,,,,,,,,,,,,,,,,,,,,,,,,,,,,,,,,,,,,,,,,,,,,,,,,,,,,,,,,,,,,,,,,,,,,,,,,,,,,,,,,,,,,,,,,,,21.14846560001024,None,21.14846560001024,None,"['down', 'down', 'down', 'down', 'down', 'down', 'down', 'down']","[1.0443910000030883, 1.3063150999951176, 1.5823168000060832, 1.8783786999993026, 2.1483412999950815, 2.440338000000338, 2.694302699994296, 2.9602917000011075]",21.14846560001024,None,,,,,,,,,,,,,,,,,,,,,,,,,,,,,,,,,,,,,,,,,,,,,,,,001,001,2021_Jun_01_1353,test,2021.1.4,59.93004964365439,
,,,,,,,,,,,,,,,,,,,,,,,,,,,,,,,,,,,,,,,,,,,,,,,,,,,,,,,,,,,,,,,,,,,,,,,,,,,,,,,,,,,,,,,,,,,,,,,,,,,,,,,,,,,,,,,,,,,,,,,,space,3.1328617999970447,21.14846560001024,None,,,,,,,,,,,,,,,,,,,,,,,,,,,,,,,,,,,,,,,,,,,,001,001,2021_Jun_01_1353,test,2021.1.4,59.93004964365439,
,,,,,,,,,,,,,,,,,,,,,,,,,,,,,,,,,,,,,,,,,,,,,,,,,,,,,,,,,,,,,,,,,,,,,,,,,,,,,,,,,,,,,,,,,,,,,,24.299529700001585,None,space,0.3812716999964323,24.299529700001585,None,,,,,,,,,,,,,,,,,,,,,,,,,,,,,,,,,,,,,,,,,,,,,,,,,,,,,,,,,,,,,,,,,,,,001,001,2021_Jun_01_1353,test,2021.1.4,59.93004964365439,
,,,,,,,,,,,,,,,,,,,,,,,,,,,,,,,,,,,,,,,,,,,,,,,,,,,,,,,,,,,,,,,,,,,,,,,,,,,,,,,,,,,,,,,,,,,,,,,,,,,,,,,,,,,,,,,,,,,,,,,,,,,,24.699693600006867,None,24.699693600006867,None,space,0.3430607000045711,24.699693600006867,None,,,,,,,,,,,,,,,,,,,,,,,,,,,,,,,,,,,,001,001,2021_Jun_01_1353,test,2021.1.4,59.93004964365439,
,,,,,,,,,,,,,,,,,,,,,,,,,,,,,,,,,,,,,,,,,,,,,,,,,,,,,,,,,,,,,,,,,,,,,,,,,,,,,,,,,,,,,,,,,,,,,,,,,,,,,,,,,,,,,,,,,,,,,,,,,,,,,,,,,,,,s,0.7636322999896947,25.067255500005558,None,,,,,,,,,,,,,,,,,,,,,,,,,,,,,,,,001,001,2021_Jun_01_1353,test,2021.1.4,59.93004964365439,
0,0,0,0,0,0,0,0,,,,,,,,,,,,,,,,,,,,,,,,,,,,,,,,,,,,,,,,,,,,,,,,,,,,,,,,,,,,,,,,,,,,,,,,,,,,,,,,,,,,,,,29.701473200009787,None,space,1.9794235000008484,29.701473200009787,None,,,,,,,,,,,,,,,,,,,,,,,,,,,,,,,,,,,,,25.067255500005558,None,25.067255500005558,None,25.88345670000126,None,560,26.41699110000627,None,29.235133300011512,None,29.235133300011512,None,29.235133300011512,None,29.235133300011512,None,29.235133300011512,None,29.235133300011512,None,space,0.44970359999570064,29.235133300011512,None,31.702296700008446,None,space,3.5166328999912366,31.702296700008446,None,001,001,2021_Jun_01_1353,test,2021.1.4,59.93004964365439,
0,0,0,0,1,0,1,0,,,,,,,,,,,,,,,,,,,,,,,,,,,,,,,,,,,,,,,,,,,,,,,,,,,,,,,,,,,,,,,,,,,,,,,,,,,,,,,,,,,,,,,40.221999900008086,None,space,0.20872229999804404,40.221999900008086,None,,,,,,,,,,,,,,,,,,,,,,,,,,,,,,,,,,,,,,,,,35.25353860000905,None,560,36.83744000000297,None,39.77186220001022,None,39.77186220001022,None,39.77186220001022,None,39.77186220001022,None,39.77186220001022,None,39.77186220001022,None,space,0.43493730000045616,39.77186220001022,None,40.45542060000298,None,space,0.27529710000089835,40.45542060000298,None,001,001,2021_Jun_01_1353,test,2021.1.4,59.93004964365439,
0,0,0,0,2,0,2,0,,,,,,,,,,,,,,,,,,,,,,,,,,,,,,,,,,,,,,,,,,,,,,,,,,,,,,,,,,,,,,,,,,,,,,,,,,,,,,,,,,,,,,,41.80591170000844,None,space,0.2748483000032138,41.80591170000844,None,,,,,,,,,,,,,,,,,,,,,,,,,,,,,,,,,,,,,,,,,40.77220380000654,None,560,41.13899520000268,None,41.37242480000714,None,41.37242480000714,None,41.37242480000714,None,41.37242480000714,None,41.37242480000714,None,41.37242480000714,None,space,0.4063121999934083,41.37242480000714,None,42.10602300000028,None,space,0.36680669999623206,42.10602300000028,None,001,001,2021_Jun_01_1353,test,2021.1.4,59.93004964365439,
0,0,0,0,3,0,3,0,,,,,,,,,,,,,,,,,,,,,,,,,,,,,,,,,,,,,,,,,,,,,,,,,,,,,,,,,,,,,,,,,,,,,,,,,,,,,,,,,,,,,,,43.42315899999812,None,space,0.34955150001042057,43.42315899999812,None,,,,,,,,,,,,,,,,,,,,,,,,,,,,,,,,,,,,,,,,,42.50617360000615,None,560,42.889637900007074,None,43.189743200011435,None,43.189743200011435,None,43.189743200011435,None,43.189743200011435,None,43.189743200011435,None,43.189743200011435,None,space,0.21897240000544116,43.189743200011435,None,43.789954400010174,None,space,0.5330048000032548,43.789954400010174,None,001,001,2021_Jun_01_1353,test,2021.1.4,59.93004964365439,
0,0,0,0,4,0,4,0,,,,,,,,,,,,,,,,,,,,,,,,,,,,,,,,,,,,,,,,,,,,,,,,,,,,,,,,,,,,,,,,,,,,,,,,,,,,,,,,,,,,,,,45.19054770001094,None,space,0.30816450000565965,45.19054770001094,None,,,,,,,,,,,,,,,,,,,,,,,,,,,,,,,,,,,,,,,,,44.35696230000758,None,560,44.72373110000626,None,44.97561080000014,None,44.97561080000014,None,44.97561080000014,None,44.97561080000014,None,44.97561080000014,None,44.97561080000014,None,space,0.1991145000065444,44.97561080000014,None,45.523909399998956,None,space,0.31081059999996796,45.523909399998956,None,001,001,2021_Jun_01_1353,test,2021.1.4,59.93004964365439,
