trials.thisRepN,trials.thisTrialN,trials.thisN,trials.thisIndex,Loop.thisRepN,Loop.thisTrialN,Loop.thisN,Loop.thisIndex,text_13.started,text_13.stopped,key_resp_11.keys,key_resp_11.rt,key_resp_11.started,key_resp_11.stopped,HelloWorldImage.started,HelloWorldImage.stopped,key_resp.keys,key_resp.rt,key_resp.started,key_resp.stopped,text_2.started,text_2.stopped,text_12.started,text_12.stopped,helloWorldInput.started,helloWorldInput.stopped,key_resp_4.keys,key_resp_4.rt,key_resp_4.started,key_resp_4.stopped,text_3.started,text_3.stopped,text_11.started,text_11.stopped,key_resp_5.keys,key_resp_5.rt,key_resp_5.started,key_resp_5.stopped,helloWorld_1.started,helloWorld_1.stopped,helloWorld_2.started,helloWorld_2.stopped,helloWorld_3.started,helloWorld_3.stopped,helloWorld_4.started,helloWorld_4.stopped,Fragezeichen.started,Fragezeichen.stopped,text_4.started,text_4.stopped,image_6.started,image_6.stopped,text_5.started,text_5.stopped,key_resp_6.keys,key_resp_6.rt,key_resp_6.started,key_resp_6.stopped,text_10.started,text_10.stopped,key_resp_10.keys,key_resp_10.rt,key_resp_10.started,key_resp_10.stopped,text_14.started,text_14.stopped,key_resp_12.keys,key_resp_12.rt,key_resp_12.started,key_resp_12.stopped,TestSnippet.started,TestSnippet.stopped,key_resp_13.keys,key_resp_13.rt,key_resp_13.started,key_resp_13.stopped,TrainingInput_2.started,TrainingInput_2.stopped,key_resp_15.keys,key_resp_15.rt,key_resp_15.started,key_resp_15.stopped,number1.started,number1.stopped,number2.started,number2.stopped,number3.started,number3.stopped,number4.started,number4.stopped,number5.started,number5.stopped,arrow_2.started,arrow_2.stopped,image_7.started,image_7.stopped,key_resp_16.keys,key_resp_16.rt,key_resp_16.started,key_resp_16.stopped,text.started,text.stopped,key_resp_14.keys,key_resp_14.rt,key_resp_14.started,key_resp_14.stopped,text_6.started,text_6.stopped,key_resp_7.keys,key_resp_7.rt,key_resp_7.started,key_resp_7.stopped,text_7.started,text_7.stopped,sampleSyntax.started,sampleSyntax.stopped,Pfeiltaste.keys,Pfeiltaste.started,Pfeiltaste.stopped,weiter.keys,weiter.rt,weiter.started,weiter.stopped,overview.started,overview.stopped,overviewImage.started,overviewImage.stopped,key_resp_8.keys,key_resp_8.rt,key_resp_8.started,key_resp_8.stopped,key_resp_9.keys,key_resp_9.rt,key_resp_9.started,key_resp_9.stopped,text_9.started,text_9.stopped,warningStartStudy.started,warningStartStudy.stopped,Image.started,Image.stopped,path,image.started,image.stopped,image_1.started,image_1.stopped,image_2.started,image_2.stopped,image_3.started,image_3.stopped,image_4.started,image_4.stopped,image_5.started,image_5.stopped,arrow.started,arrow.stopped,key_resp_3.keys,key_resp_3.rt,key_resp_3.started,key_resp_3.stopped,continuQuestion.started,continuQuestion.stopped,stop.keys,stop.rt,stop.started,stop.stopped,participant,session,date,expName,psychopyVersion,frameRate,
,,,,,,,,9.31339900000603,None,space,1.0908361000037985,9.31339900000603,None,,,,,,,,,,,,,,,,,,,,,,,,,,,,,,,,,,,,,,,,,,,,,,,,,,,,,,,,,,,,,,,,,,,,,,,,,,,,,,,,,,,,,,,,,,,,,,,,,,,,,,,,,,,,,,,,,,,,,,,,,,,,,,,,,,,,,,,,,,,,,,,,,,,,,,,,,001,001,2021_Jun_01_1323,test,2021.1.4,59.975625905060966,
,,,,,,,,,,,,,,10.429615800007014,None,space,1.6406484000035562,10.429615800007014,None,,,,,,,,,,,,,,,,,,,,,,,,,,,,,,,,,,,,,,,,,,,,,,,,,,,,,,,,,,,,,,,,,,,,,,,,,,,,,,,,,,,,,,,,,,,,,,,,,,,,,,,,,,,,,,,,,,,,,,,,,,,,,,,,,,,,,,,,,,,,,,,,,,,001,001,2021_Jun_01_1323,test,2021.1.4,59.975625905060966,
,,,,,,,,,,,,,,,,,,,,10.429615800007014,None,10.429615800007014,None,12.096853299997747,None,space,1.3335014999902342,12.096853299997747,None,,,,,,,,,,,,,,,,,,,,,,,,,,,,,,,,,,,,,,,,,,,,,,,,,,,,,,,,,,,,,,,,,,,,,,,,,,,,,,,,,,,,,,,,,,,,,,,,,,,,,,,,,,,,,,,,,,,,,,,,,,,,,,,,,,,,,,,,,001,001,2021_Jun_01_1323,test,2021.1.4,59.975625905060966,
,,,,,,,,,,,,,,,,,,,,,,,,,,,,,,12.096853299997747,None,12.096853299997747,None,['space'],[1.3488312999979826],13.447383000006084,None,,,,,,,,,,,,,,,,,,,,,,,,,,,,,,,,,,,,,,,,,,,,,,,,,,,,,,,,,,,,,,,,,,,,,,,,,,,,,,,,,,,,,,,,,,,,,,,,,,,,,,,,,,,,,,,,,,,,,,,,,,,,,,,,,001,001,2021_Jun_01_1323,test,2021.1.4,59.975625905060966,
,,,,,,,,,,,,,,,,,,,,,,,,,,,,,,,,,,,,,,13.447383000006084,None,13.447383000006084,None,13.447383000006084,None,13.447383000006084,None,13.447383000006084,None,13.447383000006084,None,13.447383000006084,None,14.81456870000693,None,space,1.49571059999289,14.81456870000693,None,,,,,,,,,,,,,,,,,,,,,,,,,,,,,,,,,,,,,,,,,,,,,,,,,,,,,,,,,,,,,,,,,,,,,,,,,,,,,,,,,,,,,,,,,,,,,,,,,,,,,,,,,,,,,001,001,2021_Jun_01_1323,test,2021.1.4,59.975625905060966,
,,,,,,,,,,,,,,,,,,,,,,,,,,,,,,,,,,,,,,,,,,,,,,,,,,,,,,,,,,16.331761199995526,None,space,0.42639860000053886,16.331761199995526,None,,,,,,,,,,,,,,,,,,,,,,,,,,,,,,,,,,,,,,,,,,,,,,,,,,,,,,,,,,,,,,,,,,,,,,,,,,,,,,,,,,,,,,,,,,,,,,,,,,,,,,,001,001,2021_Jun_01_1323,test,2021.1.4,59.975625905060966,
,,,,,,,,,,,,,,,,,,,,,,,,,,,,,,,,,,,,,,,,,,,,,,,,,,,,,,,,,,,,,,,,16.78188379999483,None,space,0.7523051000025589,16.78188379999483,None,,,,,,,,,,,,,,,,,,,,,,,,,,,,,,,,,,,,,,,,,,,,,,,,,,,,,,,,,,,,,,,,,,,,,,,,,,,,,,,,,,,,,,,,,,,,,,,,,001,001,2021_Jun_01_1323,test,2021.1.4,59.975625905060966,
,,,,,,,,,,,,,,,,,,,,,,,,,,,,,,,,,,,,,,,,,,,,,,,,,,,,,,,,,,,,,,,,,,,,,,16.78188379999483,None,space,0.48462269999436103,17.565499499993166,None,,,,,,,,,,,,,,,,,,,,,,,,,,,,,,,,,,,,,,,,,,,,,,,,,,,,,,,,,,,,,,,,,,,,,,,,,,,,,,,,,,,,,,,,,,,001,001,2021_Jun_01_1323,test,2021.1.4,59.975625905060966,
,,,,,,,,,,,,,,,,,,,,,,,,,,,,,,,,,,,,,,,,,,,,,,,,,,,,,,,,,,,,,,,,,,,,,,,,,,,,17.565499499993166,None,['space'],[1.212502800000948],18.065732799994294,None,,,,,,,,,,,,,,,,,,,,,,,,,,,,,,,,,,,,,,,,,,,,,,,,,,,,,,,,,,,,,,,,,,,,,,,,,,,,,,,,,,,,,001,001,2021_Jun_01_1323,test,2021.1.4,59.975625905060966,
,,,,,,,,,,,,,,,,,,,,,,,,,,,,,,,,,,,,,,,,,,,,,,,,,,,,,,,,,,,,,,,,,,,,,,,,,,,,,,,,,,18.065732799994294,None,18.065732799994294,None,18.065732799994294,None,18.065732799994294,None,18.065732799994294,None,18.065732799994294,None,19.299536100006662,None,space,3.2766762000101153,19.299536100006662,None,,,,,,,,,,,,,,,,,,,,,,,,,,,,,,,,,,,,,,,,,,,,,,,,,,,,,,,,,,,,,,,,,,,001,001,2021_Jun_01_1323,test,2021.1.4,59.975625905060966,
,,,,,,,,,,,,,,,,,,,,,,,,,,,,,,,,,,,,,,,,,,,,,,,,,,,,,,,,,,,,,,,,,,,,,,,,,,,,,,,,,,,,,,,,,,,,,,,,,,,,22.600729600002524,None,space,1.1134899000026053,22.600729600002524,None,,,,,,,,,,,,,,,,,,,,,,,,,,,,,,,,,,,,,,,,,,,,,,,,,,,,,,,,,,,,,001,001,2021_Jun_01_1323,test,2021.1.4,59.975625905060966,
,,,,,,,,,,,,,,,,,,,,,,,,,,,,,,,,,,,,,,,,,,,,,,,,,,,,,,,,,,,,,,,,,,,,,,,,,,,,,,,,,,,,,,,,,,,,,,,,,,,,,,,,,,23.73448990000179,None,space,0.5096139999950537,23.73448990000179,None,,,,,,,,,,,,,,,,,,,,,,,,,,,,,,,,,,,,,,,,,,,,,,,,,,,,,,,001,001,2021_Jun_01_1323,test,2021.1.4,59.975625905060966,
,,,,,,,,,,,,,,,,,,,,,,,,,,,,,,,,,,,,,,,,,,,,,,,,,,,,,,,,,,,,,,,,,,,,,,,,,,,,,,,,,,,,,,,,,,,,,,,,,,,,,,,,,,,,,,,,24.267971399996895,None,24.267971399996895,None,None,24.267971399996895,None,,,,,,,,,,,,,,,,,,,,,,,,,,,,,,,,,,,,,,,,,,,,,,,,001,001,2021_Jun_01_1323,test,2021.1.4,59.975625905060966,
,,,,,,,,,,,,,,,,,,,,,,,,,,,,,,,,,,,,,,,,,,,,,,,,,,,,,,,,,,,,,,,,,,,,,,,,,,,,,,,,,,,,,,,,,,,,,,,,,,,,,,,,,,,,,,,,,,,,,,,space,1.4871279999933904,24.267971399996895,None,,,,,,,,,,,,,,,,,,,,,,,,,,,,,,,,,,,,,,,,,,,,001,001,2021_Jun_01_1323,test,2021.1.4,59.975625905060966,
,,,,,,,,,,,,,,,,,,,,,,,,,,,,,,,,,,,,,,,,,,,,,,,,,,,,,,,,,,,,,,,,,,,,,,,,,,,,,,,,,,,,,,,,,,,,,,25.78521109999565,None,space,1.437024200000451,25.78521109999565,None,,,,,,,,,,,,,,,,,,,,,,,,,,,,,,,,,,,,,,,,,,,,,,,,,,,,,,,,,,,,,,,,,,,001,001,2021_Jun_01_1323,test,2021.1.4,59.975625905060966,
,,,,,,,,,,,,,,,,,,,,,,,,,,,,,,,,,,,,,,,,,,,,,,,,,,,,,,,,,,,,,,,,,,,,,,,,,,,,,,,,,,,,,,,,,,,,,,,,,,,,,,,,,,,,,,,,,,,,,,,,,,,27.252399100005277,None,27.252399100005277,None,space,1.5478100000036648,27.252399100005277,None,,,,,,,,,,,,,,,,,,,,,,,,,,,,,,,,,,,,001,001,2021_Jun_01_1323,test,2021.1.4,59.975625905060966,
,,,,,,,,,,,,,,,,,,,,,,,,,,,,,,,,,,,,,,,,,,,,,,,,,,,,,,,,,,,,,,,,,,,,,,,,,,,,,,,,,,,,,,,,,,,,,,,,,,,,,,,,,,,,,,,,,,,,,,,,,,,,,,,,,,,s,1.2686197000002721,28.8196128999989,None,,,,,,,,,,,,,,,,,,,,,,,,,,,,,,,,001,001,2021_Jun_01_1323,test,2021.1.4,59.975625905060966,
0,0,0,0,0,0,0,0,,,,,,,,,,,,,,,,,,,,,,,,,,,,,,,,,,,,,,,,,,,,,,,,,,,,,,,,,,,,,,,,,,,,,,,,,,,,,,,,,,,,,,,,,,,,,,,,,,,,,,,,,,,,,,,,,,,,,,,,,,,,,,,,28.8196128999989,None,28.8196128999989,None,30.153499499996542,None,681,33.85476430000563,None,34.8551346000022,None,34.8551346000022,None,34.8551346000022,None,34.8551346000022,None,34.8551346000022,None,34.8551346000022,None,space,1.2210006000095746,34.8551346000022,None,36.08892999999807,None,space,2.515359699988039,36.08892999999807,None,001,001,2021_Jun_01_1323,test,2021.1.4,59.975625905060966,
,,,,,,,,,,,,,,,,,,,,,,,,,,,,,,,,,,,,,,,,,,,,,,,,,,,,,,,,,,,,,,,,,,,,,,,,,,,,,,,,,,,,,,,,,,,,,,,,,,,,,,,,,,,,,,,,,,,,,,,,,,,,,,,,,,,,,,,,,,,38.639964200003305,None,681,43.6583607000066,None,,,,,,,,,,,,,,,,,,,,,,,,,,,,,
